"STUDYID","USUBJID","PARAMCD","PARAM","AVISIT","AVISITN","AVAL","CHG","PCHG","AVALU","TRT01A","ANL01FL"
"SYNTH001","SYNTH001-001","ALT","Alanine aminotransferase","Baseline",0,20,0,0,"U/L","Placebo","Y"
"SYNTH001","SYNTH001-001","ALT","Alanine aminotransferase","Week 4",4,24,4,20,"U/L","Placebo","N"
"SYNTH001","SYNTH001-001","ALT","Alanine aminotransferase","Week 8",8,26,6,30,"U/L","Placebo","Y"
"SYNTH001","SYNTH001-002","ALT","Alanine aminotransferase","Baseline",0,22,0,0,"U/L","Placebo","N"
"SYNTH001","SYNTH001-002","ALT","Alanine aminotransferase","Week 4",4,25,3,13.6363636364,"U/L","Placebo","Y"
"SYNTH001","SYNTH001-002","ALT","Alanine aminotransferase","Week 8",8,28,6,27.2727272727,"U/L","Placebo","N"
"SYNTH001","SYNTH001-003","ALT","Alanine aminotransferase","Baseline",0,24,0,0,"U/L","Placebo","Y"
"SYNTH001","SYNTH001-003","ALT","Alanine aminotransferase","Week 4",4,27,3,12.5,"U/L","Placebo","N"
"SYNTH001","SYNTH001-003","ALT","Alanine aminotransferase","Week 8",8,30,6,25,"U/L","Placebo","Y"
"SYNTH001","SYNTH001-004","ALT","Alanine aminotransferase","Baseline",0,26,0,0,"U/L","Active","N"
"SYNTH001","SYNTH001-004","ALT","Alanine aminotransferase","Week 4",4,29,3,11.5384615385,"U/L","Active","Y"
"SYNTH001","SYNTH001-004","ALT","Alanine aminotransferase","Week 8",8,32,6,23.0769230769,"U/L","Active","N"
"SYNTH001","SYNTH001-005","ALT","Alanine aminotransferase","Baseline",0,28,0,0,"U/L","Active","Y"
"SYNTH001","SYNTH001-005","ALT","Alanine aminotransferase","Week 4",4,,,,"U/L","Active","N"
"SYNTH001","SYNTH001-005","ALT","Alanine aminotransferase","Week 8",8,34,6,21.4285714286,"U/L","Active","Y"
"SYNTH001","SYNTH001-006","ALT","Alanine aminotransferase","Baseline",0,30,0,0,"U/L","Active","N"
"SYNTH001","SYNTH001-006","ALT","Alanine aminotransferase","Week 4",4,,,,"U/L","Active","Y"
"SYNTH001","SYNTH001-006","ALT","Alanine aminotransferase","Week 8",8,36,6,20,"U/L","Active","N"
