{
  "manifest_version": "synthetic-bds-manifest-v1",
  "generator_version": "synthetic-bds-generator-v1",
  "classification": "synthetic",
  "clinical_evidence_use": false,
  "scenarios": [
    {
      "scenario_id": "standard",
      "dataset_id": "adlb-standard",
      "snapshot_id": "synthetic-adlb-standard-v1",
      "file": "adlb-standard.rds",
      "purpose": "Passing visit-based numeric BDS profile",
      "expected_behavior": "passes",
      "generator_version": "synthetic-bds-generator-v1",
      "seed": 20260906,
      "classification": "synthetic",
      "adam_designation": "BDS",
      "declared_keys": ["STUDYID", "USUBJID", "PARAMCD", "AVISITN"],
      "metadata_version": "synthetic-adlb-metadata-v1",
      "permitted_treatment_variables": "TRT01A",
      "content_hash": "d3655be5cbba9db77072b49253f60f5f07f43729ebaedfba00cb96c368fd9ab1"
    },
    {
      "scenario_id": "multiple-units",
      "dataset_id": "adlb-multiple-units",
      "snapshot_id": "synthetic-adlb-multiple-units-v1",
      "file": "adlb-multiple-units.rds",
      "purpose": "Unresolved multiple-unit selection",
      "expected_behavior": "blocks:unit_selection_required",
      "generator_version": "synthetic-bds-generator-v1",
      "seed": 20260906,
      "classification": "synthetic",
      "adam_designation": "BDS",
      "declared_keys": ["STUDYID", "USUBJID", "PARAMCD", "AVISITN"],
      "metadata_version": "synthetic-adlb-metadata-v1",
      "permitted_treatment_variables": "TRT01A",
      "content_hash": "9fd3fe6d11beeff9d387dd9f6c650a62f4b71ef0d8226ba527af9cc5bd1b5150"
    },
    {
      "scenario_id": "duplicate-keys",
      "dataset_id": "adlb-duplicate-keys",
      "snapshot_id": "synthetic-adlb-duplicate-keys-v1",
      "file": "adlb-duplicate-keys.rds",
      "purpose": "Unsupported duplicate subject-parameter-visit key",
      "expected_behavior": "blocks:unsupported_duplicate_visit_key",
      "generator_version": "synthetic-bds-generator-v1",
      "seed": 20260906,
      "classification": "synthetic",
      "adam_designation": "BDS",
      "declared_keys": ["STUDYID", "USUBJID", "PARAMCD", "AVISITN"],
      "metadata_version": "synthetic-adlb-metadata-v1",
      "permitted_treatment_variables": "TRT01A",
      "content_hash": "99170410cef3865c7031a4eef04aef46ef411fe17f4f046346fd1fc43f0b3523"
    },
    {
      "scenario_id": "sparse-missing",
      "dataset_id": "adlb-sparse-missing",
      "snapshot_id": "synthetic-adlb-sparse-missing-v1",
      "file": "adlb-sparse-missing.rds",
      "purpose": "Six source subjects and four non-missing selected values",
      "expected_behavior": "warns:low_sample_size",
      "generator_version": "synthetic-bds-generator-v1",
      "seed": 20260906,
      "classification": "synthetic",
      "adam_designation": "BDS",
      "declared_keys": ["STUDYID", "USUBJID", "PARAMCD", "AVISITN"],
      "metadata_version": "synthetic-adlb-metadata-v1",
      "permitted_treatment_variables": "TRT01A",
      "content_hash": "d3655be5cbba9db77072b49253f60f5f07f43729ebaedfba00cb96c368fd9ab1"
    },
    {
      "scenario_id": "empty-combination",
      "dataset_id": "adlb-empty-combination",
      "snapshot_id": "synthetic-adlb-empty-combination-v1",
      "file": "adlb-empty-combination.rds",
      "purpose": "No display data for one treatment-visit combination",
      "expected_behavior": "warns:empty_treatment_visit",
      "generator_version": "synthetic-bds-generator-v1",
      "seed": 20260906,
      "classification": "synthetic",
      "adam_designation": "BDS",
      "declared_keys": ["STUDYID", "USUBJID", "PARAMCD", "AVISITN"],
      "metadata_version": "synthetic-adlb-metadata-v1",
      "permitted_treatment_variables": "TRT01A",
      "content_hash": "f53cee5939a723abe1643cf5cbcc2b0c4bfa19c96cc1ef0733715e9b300b77f9"
    },
    {
      "scenario_id": "bad-visit-mapping",
      "dataset_id": "adlb-bad-visit-mapping",
      "snapshot_id": "synthetic-adlb-bad-visit-mapping-v1",
      "file": "adlb-bad-visit-mapping.rds",
      "purpose": "Conflicting AVISIT to AVISITN mapping",
      "expected_behavior": "blocks:invalid_visit_mapping",
      "generator_version": "synthetic-bds-generator-v1",
      "seed": 20260906,
      "classification": "synthetic",
      "adam_designation": "BDS",
      "declared_keys": ["STUDYID", "USUBJID", "PARAMCD", "AVISITN"],
      "metadata_version": "synthetic-adlb-metadata-v1",
      "permitted_treatment_variables": "TRT01A",
      "content_hash": "ff5f98c120801396f652c7b703391a7d7da71546b8da278e49dd6bf95696126c"
    },
    {
      "scenario_id": "empty-treatment",
      "dataset_id": "adlb-empty-treatment",
      "snapshot_id": "synthetic-adlb-empty-treatment-v1",
      "file": "adlb-empty-treatment.rds",
      "purpose": "Included treatment level with all selected Y values missing",
      "expected_behavior": "warns:empty_treatment_level",
      "generator_version": "synthetic-bds-generator-v1",
      "seed": 20260906,
      "classification": "synthetic",
      "adam_designation": "BDS",
      "declared_keys": ["STUDYID", "USUBJID", "PARAMCD", "AVISITN"],
      "metadata_version": "synthetic-adlb-metadata-v1",
      "permitted_treatment_variables": "TRT01A",
      "content_hash": "8a153241990d2a08ddbad8a8f0da997a0caecc023b0d5221c94e29c4eec27455"
    },
    {
      "scenario_id": "extra-timepoint-keys",
      "dataset_id": "adlb-extra-timepoint-keys",
      "snapshot_id": "synthetic-adlb-extra-timepoint-keys-v1",
      "file": "adlb-extra-timepoint-keys.rds",
      "purpose": "Legitimate additional timepoint key outside the cell profile",
      "expected_behavior": "blocks:unsupported_additional_timepoint_keys",
      "generator_version": "synthetic-bds-generator-v1",
      "seed": 20260906,
      "classification": "synthetic",
      "adam_designation": "BDS",
      "declared_keys": ["STUDYID", "USUBJID", "PARAMCD", "AVISITN", "ATPTN"],
      "metadata_version": "synthetic-adlb-metadata-v1",
      "permitted_treatment_variables": "TRT01A",
      "content_hash": "6ddb4a247c97a1dee75f822424d14e3e90d3359c36c23424382872b44dbed55a"
    },
    {
      "scenario_id": "identifier-canary",
      "dataset_id": "adlb-identifier-canary",
      "snapshot_id": "synthetic-adlb-identifier-canary-v1",
      "file": "adlb-identifier-canary.rds",
      "purpose": "Authorization-scoped duplicate identifier canary",
      "expected_behavior": "blocks:unsupported_duplicate_visit_key",
      "generator_version": "synthetic-bds-generator-v1",
      "seed": 20260906,
      "classification": "synthetic",
      "adam_designation": "BDS",
      "declared_keys": ["STUDYID", "USUBJID", "PARAMCD", "AVISITN"],
      "metadata_version": "synthetic-adlb-metadata-v1",
      "permitted_treatment_variables": "TRT01A",
      "content_hash": "2033bd2b4ce2e6b097205c89392a3070f13e263d609ae94392f187e48ea4f5e7"
    },
    {
      "scenario_id": "exclusions",
      "dataset_id": "adlb-exclusions",
      "snapshot_id": "synthetic-adlb-exclusions-v1",
      "file": "adlb-exclusions.rds",
      "purpose": "Explicit selections remove an otherwise blocking duplicate",
      "expected_behavior": "passes:explicit_exclusions_precede_key_check",
      "generator_version": "synthetic-bds-generator-v1",
      "seed": 20260906,
      "classification": "synthetic",
      "adam_designation": "BDS",
      "declared_keys": ["STUDYID", "USUBJID", "PARAMCD", "AVISITN"],
      "metadata_version": "synthetic-adlb-metadata-v1",
      "permitted_treatment_variables": "TRT01A",
      "content_hash": "334a98eb7f89dda077fbe75034701f5e2345136881406b3dee619dc9a1bcb5c9"
    }
  ]
}
